Folder: 2021-141_MBVB_Kusama/content/data

Note: README.md
# RCE Project 2021-141
## Colour measurements

To access the content of this repository via JupyterLite, click on the following link:

➡️ **https://g-patin.github.io/2021-141_MBVB_Kusama**

![github-pages](https://user-images.githubusercontent.com/591645/120649478-18258400-c47d-11eb-80e5-185e52ff2702.gif)

[![lite-badge](https://jupyterlite.rtfd.io/en/latest/_static/badge.svg)](https://jupyterlite.github.io/demo)


## Deploy your JupyterLite website on GitHub Pages

Check out the guide on the JupyterLite documentation: https://jupyterlite.readthedocs.io/en/latest/quickstart/deploy.html


## Further Information and Updates

For more info, keep an eye on the JupyterLite documentation:

- How-to Guides: https://jupyterlite.readthedocs.io/en/latest/howto/index.html
- Reference: https://jupyterlite.readthedocs.io/en/latest/reference/index.html

File: 2022-12-02_b.3021_0097_BWS_BW1_E.1.1x4.0_wbg_HAL3_Tidas.txt
parameter,value1,value2
[SINGLE REFLECTANCE MEASUREMENT], ,
author,Gauthier Patin,
date_time,2022-12-02 11:25:17,
project,1.1_stereo-MFT,
[SAMPLE DATA], ,
sample_type,BWS,
sample_nb,nb.0097,
name,BW1,
pigment,C.I. Acid Blue 104,
binding,unknown,
colour,blue,
ratio,1,
thickness_microns,unknown,
sample_support,wool,
sample_date,2019,
comments,,
[DEVICE DATA], ,
device,Tidas_S 400,
geometry,45° : 0°,
option,E.1.1x4.0,
lamp,"HAL3_Ocean Optics, HL-2000-FHSA-LL",
filter,noFilter,
fiber_ill,UVIR600um2,
white_ref,"WR1_Dr Lange, pressed barium sulphate powder",
[ANALYSIS DATA], ,
Id,b.3021,
background,wbg,
specular_component,excluded,
integration_time_ms,80.00,
average,20,
measurements_N,1,
[COLORIMETRIC DATA], ,
observer,10deg,2deg
illuminant,D65,D50
L*,46.96,43.75
a*,-4.95,-2.91
b*,-40.59,-45.45
C*,40.89,45.54
h,263.05,266.34
[MEASUREMENT DATA], ,
wavelength_nm,reflectance,
305,0.6914,
308,0.694,
311,0.6843,
314,0.6766,
317,0.6755,
320,0.6781,
323,0.6636,
326,0.6579,
329,0.6519,
332,0.6477,
335,0.6326,
338,0.6194,
341,0.609,
344,0.5892,
347,0.5827,
350,0.5626,
353,0.5523,
356,0.5446,
359,0.5292,
362,0.5191,
365,0.5146,
368,0.5005,
371,0.4817,
374,0.462,
377,0.4274,
380,0.355,
383,0.0337,
386,0.3115,
389,0.3273,
392,0.3245,
395,0.3276,
398,0.3355,
401,0.3465,
404,0.359,
407,0.3716,
410,0.383,
413,0.3933,
416,0.4021,
419,0.4089,
422,0.4148,
425,0.4201,
428,0.4247,
431,0.4285,
434,0.4314,
437,0.4336,
440,0.4352,
443,0.4367,
446,0.4372,
449,0.4371,
452,0.4359,
455,0.4342,
458,0.4317,
461,0.4286,
464,0.4246,
467,0.4196,
470,0.4138,
473,0.4071,
476,0.3994,
479,0.3907,
482,0.3814,
485,0.3712,
488,0.3602,
491,0.3486,
494,0.3364,
497,0.3235,
500,0.3103,
503,0.2968,
506,0.2831,
509,0.2694,
512,0.2558,
515,0.2424,
518,0.2292,
521,0.2164,
524,0.2039,
527,0.1919,
530,0.1803,
533,0.1691,
536,0.1584,
539,0.1482,
542,0.1386,
545,0.1297,
548,0.1215,
551,0.1139,
554,0.1071,
557,0.1009,
560,0.0954,
563,0.0905,
566,0.0863,
569,0.0826,
572,0.0794,
575,0.0766,
578,0.0741,
581,0.0719,
584,0.0698,
587,0.0679,
590,0.0661,
593,0.0643,
596,0.0625,
599,0.0607,
602,0.059,
605,0.0574,
608,0.056,
611,0.055,
614,0.0543,
617,0.0541,
620,0.0544,
623,0.0552,
626,0.057,
629,0.0596,
632,0.0634,
635,0.0684,
638,0.0749,
641,0.0832,
644,0.0934,
647,0.1058,
650,0.1204,
653,0.1375,
656,0.1568,
659,0.1777,
662,0.2001,
665,0.2238,
668,0.2486,
671,0.2743,
674,0.3007,
677,0.3274,
680,0.3541,
683,0.3807,
686,0.4063,
689,0.4309,
692,0.454,
695,0.4755,
698,0.4952,
701,0.5133,
704,0.5295,
707,0.5439,
710,0.5565,
713,0.5673,
716,0.5765,
719,0.5843,
722,0.5909,
725,0.5963,
728,0.6009,
731,0.6047,
734,0.608,
737,0.6106,
740,0.6128,
743,0.6144,
746,0.6156,
749,0.6165,
752,0.6173,
755,0.6179,
758,0.6184,
761,0.6187,
764,0.6189,
767,0.619,
770,0.619,
773,0.6188,
776,0.6186,
779,0.6184,
782,0.6183,
785,0.6182,
788,0.6181,
791,0.6179,
794,0.6176,
797,0.6174,
800,0.6171,
803,0.6168,
806,0.6162,
809,0.6158,
812,0.6154,
815,0.6151,
818,0.6149,
821,0.6149,
824,0.6147,
827,0.6145,
830,0.6142,
833,0.6139,
836,0.6136,
839,0.6133,
842,0.6131,
845,0.613,
848,0.6128,
851,0.6128,
854,0.6128,
857,0.6128,
860,0.6127,
863,0.6123,
866,0.6121,
869,0.612,
872,0.6118,
875,0.6115,
878,0.6113,
881,0.6114,
884,0.6114,
887,0.6114,
890,0.6114,
893,0.6112,
896,0.6112,
899,0.611,
902,0.6108,
905,0.6106,
908,0.6105,
911,0.6105,
914,0.6106,
917,0.6107,
920,0.6108,
923,0.6109,
926,0.6114,
929,0.6115,
932,0.6115,
935,0.6114,
938,0.6113,
941,0.612,
944,0.6124,
947,0.6127,
950,0.6129,
953,0.6129,
956,0.6127,
959,0.6124,
962,0.6123,
965,0.6123,
968,0.6118,
971,0.6123,
974,0.6119,
977,0.6129,
980,0.6134,
983,0.6139,
986,0.6141,
989,0.6142,
992,0.6141,
995,0.6141,
998,0.6144,
1001,0.6142,
1004,0.6131,
1007,0.6125,
1010,0.6128,
1013,0.6122,
1016,0.6134,
1019,0.6136,
1022,0.6153,
1025,0.6165,
1028,0.6173,
1031,0.6179,
1034,0.6184,
1037,0.618,
1040,0.6162,
1043,0.6146,
1046,0.6148,
1049,0.6131,
1052,0.6116,
1055,0.6106,
1058,0.6096,
1061,0.6088,
1064,0.6082,
1067,0.606,
1070,0.6058,
1073,0.6058,
1076,0.6077,
1079,0.6086,
1082,0.6073,
1085,0.6043,
1088,0.5949,
1091,0.5896,
1094,0.5813,
1097,0.5693,
1100,0.5459,
1103,0.5199,
1106,0.482,
1109,0.4353,
1112,0.3753,
1115,0.3102,
1118,0.2497,
1121,0.1998,
1124,0.1639,
1127,0.1402,
1130,0.1256,
1133,0.1172,
1136,0.1119,
1139,0.1081,
1140,0.1071,